QUD	RT	item_id	cumulative_score	difficulty	answer_response	new_options	options	paragraph	question	source	startDate	startTime	trial_number	trial_type	submission_ind
Question 1/36	35028	os2_3_3_Adv	0	Adv	0	0|3|1|2	To see if oxytocin changed how their brains responded to them|To analyze which regions of their brains respond more to people versus cars |To evoke different emotions in the children|These are the most common pictures shown to people used in brain research	"""Our study shows that oxytocin affects the brain and opens up the possibility that, when combined with behavioral treatments, it works like a social enhancer,"" he said. The scientists used a technique called functional MRI to scan the brains of 17 youths aged eight to 16 with autism while they looked at images of cars or the eyes of people expressing various emotions. The scans were given 45 minutes after the participants inhaled a placebo or oxytocin through a nasal spray. The scans showed that reward circuitry in the children's brains behaved more normally after a snort of oxytocin, being more active when the person was looking at faces and less active when viewing the inanimate cars. The study appears in the latest issue of the journal Proceedings of the National Academy of Sciences in the United States."	Why did the scientists have autistic children look at both people and cars?	Onestop	Wed Oct 30 2019 16:17:49 GMT-0400 (Eastern Daylight Time)	1572470000000.0	1	reading_comprehension	1
Question 2/36	57748	r3919_1_Middle	1	Middle	0	2|0|3|1	You may have a long life even if you are poor.|If you don't have much money, you can't get happiness.|Every year many people die because they are poor.|If you are rich, you will have real friendship.	"In today's world many people seem to be hungry for money. Some of them even have lost their lives for it. Money does have a great effect on the poor, but if a person has a rich life, a lot more money doesn't mean more happiness.\nIf money were everything, all millionaires would have true love, real friendship, health and a long life. However, this is not always true.\nNothing else is more pleasant than the three words ""I love you"", but can love be bought? I'm afraid not. Love means ""give"", not "" take"". Health and a long life are precious things for every person. Well, can health and a long life be bought with money? The answer is ""No"". Of all the people who live longest in the world, few of them are millionaires. Real friendship can't be bought, either.\nIn a word, where money is _ , money can cause brothers to quarrel, lovers to hate, strangers to fight and so on. No matter how much money you have, _ is still not enough to make you a happy person if you have no one to laugh with and no one to cry for.\n,"	Which of the following is TRUE according to the passage?	RACE	Wed Oct 30 2019 16:17:49 GMT-0400 (Eastern Daylight Time)	1572470000000.0	2	reading_comprehension	1
Question 3/36	55393	r3259_1_Middle	2	Middle	0	0|1|3|2	the unpleasant weather keeps them away|they can't get enough food there|the natural sights there don't arrract people|the length of nighttime keeps them away	You may have noticed that the world's population is not evenly distributed   around our planet. There are more countries where people seem to be living nearly _ each other because conditions are overcrowded . Then there are others where it seems that hardly anybody lives. What influences this unequal distribution of people ? There are specific advantages and disadvantages of living in a certain area.\nThe two main factors   that influence people's choice of location are climate and resources. Climate is the usual weather conditions in a region. Areas that have bad weather are generally less ideal as places to live in . The north and south poles at the top and bottom of the world may be beautiful in their rugged, natural way , but the disadvantage of the bitterly cold and windy conditions usually keeps people away. When it comes to climates, warm conditions and a normal amount of rainfall are advantages that attract people.\nNatural resources are tings that we get from nature that help us survive. Each region offers different resources, and therefore attracts different groups of people. People who enjoy the beach can make their living by catching and selling the ocean's many fish and other sea creature. Those who prefer farming can take advantage of rich soil in valleys near rivers. Some people are willing to accept the disadvantages of the terrible conditions of deserts or mountains in order to take advantages of the resources like oil or woods.	The writer thinks many people don't live near the north or south pole because  _  .	RACE	Wed Oct 30 2019 16:17:49 GMT-0400 (Eastern Daylight Time)	1572470000000.0	3	reading_comprehension	1
Question 4/36	39594	os19_5_2_Adv	3	Adv	0	0|2|1|3	Respecting and encouraging cultural rights|Supporting Bolivia's efforts for exemption|Signing the convention in opposition to Bolivia's return|Objecting to UN decisions	"The British parliament has recommended that Bolivia's request should be backed by the UK government, arguing that it was important that countries remained within the single convention. Bolivia's re-accession could be blocked only if a third or more of the 184 countries that have signed up to the convention opposed its request. There are suspicions that the US and UK are frantically lobbying other countries to gain sufficient numbers to block Bolivia's request. Nancie Prud'homme, of the International Center on Human Rights and Drug Policy, criticized the co-ordinated opposition to Bolivia's demands. ""These objections are legally questionable,"" she said. ""They support an arbitrary and over-broad provision and apply international drug laws in a vacuum. This is not appropriate. There are established international norms on cultural and indigenous rights, so we should support Bolivia's efforts."""	What does Nancie Prud'homme say is the norm across the globe?	Onestop	Wed Oct 30 2019 16:17:49 GMT-0400 (Eastern Daylight Time)	1572470000000.0	4	reading_comprehension	1
Question 5/36	37902	os13_4_3_Adv	4	Adv	0	0|2|3|1	Treatment programs for alcohol-related issues|Support programs for violence victims|Reform programs for reoffenders unwilling to change|Programs allowing prisoners to get high school degrees	"One strong reason for the drop in prison numbers might be the amount of post-prison support available in Sweden. A confident probation service - a government agency - is tasked not only with supervising those on probation but is also guaranteed to provide treatment programs for offenders with drug, alcohol or violence issues. The service is assisted by around 4,500 lay supervisors - members of the public who volunteer to befriend and support offenders under supervision. ""In Sweden, we believe very much in the concept of rehabilitation, without being naive of course,"" says Gustafsson. ""There are some people who will not or cannot change. But, in my experience, the majority of prisoners want to change, and we must do what we can to help to facilitate that. It is not always possible to achieve this in one prison sentence."""	What kind of programs are run by the Swedish government?	Onestop	Wed Oct 30 2019 16:17:49 GMT-0400 (Eastern Daylight Time)	1572470000000.0	5	reading_comprehension	1
Question 6/36	20176	os9_3_2_Adv	5	Adv	0	3|0|2|1	They report on light to the part of the brain in charge of sleep rhythms|They receive reports from the brain on how to process light|They indirectly stabilize people's heartbeats|They filter out artificial light from reaching the brain	"He says it's not as simple as persuading teenagers to go to bed earlier. ""The body's natural rhythm is controlled by a particular kind of light,"" says Kelley. ""The eye doesn't just contain rods and cones; it contains cells that then report to the suprachiasmatic nuclei in the hypothalamus."" This part of the brain controls our circadian rhythms over a 24-hour cycle. It's like saying: 'Why can't you control your heartbeat?'"""	What is one role of eye cells in humans?	Onestop	Wed Oct 30 2019 16:17:49 GMT-0400 (Eastern Daylight Time)	1572470000000.0	6	reading_comprehension	1
Question 7/36	11963	os9_1_3_Ele	6	Ele	0	0|2|1|3	It is not ideal for students' health|It can be detrimental to students with pre-existing health problems such as diabetes and depression|It works with students' natural sleep rhythms|It is too early for both students and teachers	Many of us know we don't get enough sleep, but imagine if there was a simple solution: getting up later. In a speech at the British Science Festival, Dr. Paul Kelley from Oxford University said schools should stagger their starting times to work with the natural rhythms of their students. This would improve exam results and students' health (lack of sleep can cause diabetes, depression, obesity and other health problems).	What does Dr. Kelley suggest about the current starting time for schools?	Onestop	Wed Oct 30 2019 16:17:49 GMT-0400 (Eastern Daylight Time)	1572470000000.0	7	reading_comprehension	1
Question 8/36	27241	os19_3_2_Ele	7	Ele	0	2|1|3|0	Increased coca production and cocaine trade|Greater difficulty in controlling coca leaves trade|Current international drug control laws|The drug trade straining international diplomacy	"But the UN's International Narcotics Control Board (INCB), which checks global drug agreements, says Bolivia may harm international drug controls. Many countries - including the UK, the US, Italy, Sweden, the Netherlands and Russia - do not want to give Bolivia what it is asking for. The UK told the UN that it ""respects the cultural importance of the coca leaf in Bolivia,"" but it adds: ""The United Kingdom is worried that the exemption could lead to more coca production and - most importantly - more coca reaching the cocaine trade. The exemption would make it more difficult to control the illegal drugs trade."""	What is the UK worried about?	Onestop	Wed Oct 30 2019 16:17:49 GMT-0400 (Eastern Daylight Time)	1572470000000.0	8	reading_comprehension	1
Question 9/36	21744	os1_4_3_Ele	8	Ele	0	0|2|3|1	Not all roads have been thoroughly scanned yet|Even the best currently-possible road scans are not of high enough quality to make these cars safe|Driverless cars are restricted by law to about 2,000 of California's 170,000 miles of road|Pushback from traditional car companies	There need to be detailed scans of the roads before the cars can drive on them, because they cannot collect and process enough information in real time. So far, there are detailed maps of about 2,000 miles of California's roads, but California has more than 170,000 miles of roads. Google says it wants to license the technology to traditional car makers when they have improved it.	Why can't the driverless cars currently drive on all roads?	Onestop	Wed Oct 30 2019 16:17:49 GMT-0400 (Eastern Daylight Time)	1572470000000.0	9	reading_comprehension	1
Question 10/36	26225	r7992_3_Middle	9	Middle	0	1|2|3|0	do enough sport every day|do a few minutes of sport|never do any sports|All of the above.	Many middle school students like watching TV very much. But from Monday to Friday, they must go to school. So on Saturday and Sunday they stay at home and watch TV from morning to night. They don't know it's bad for their eyes. Usually children like to eat fish, meat and chicken and don't like vegetables or fruit. They don't know eating more vegetables or fruit. They don't know eating more vegetables and fruit is better than eating meat.\nAt school, the children only do a few minutes of sports or never do any sports. The teachers must know it isn't good for their health.\nWe always think of ways to keep healthy. We must eat more vegetables and fruit, do enough sport every day. And we should watch TV and read in right ways.	At school, the students should  _  .	RACE	Wed Oct 30 2019 16:17:49 GMT-0400 (Eastern Daylight Time)	1572470000000.0	10	reading_comprehension	1
Question 11/36	28484	os4_4_3_Adv	10	Adv	0	3|2|0|1	Have drones fly shorter distances|Require drones to report their status every 15 minutes|Prevent drones from delivering packages from vehicles|Inspect drones more frequently	"Huber said about Amazon: ""I have heard them say that many packages are lightweight - a drone can carry a kilogram for 15 minutes. If you have a vehicle that can go into a neighborhood, it can deliver from that base. You need a 15-minute distance and typical off-the-shelf drones have about that distance."" It's one way, he said, of making sure the surrounding population is relatively safe. ""The larger the distance the drone travels, the more dangerous it becomes."" Of course, safety remains a major concern - Singh points out that, for a commercial aircraft to be considered skyworthy, it has to prove a rate of one serious failure every one million hours. Drones, he said, are ""one or two orders of magnitude away"" from that benchmark. ""The Reaper drone has one failure in 10,000 hours,"" Singh said. An oil leak, by the way, doesn't count as catastrophic failure - something has to fall out of the sky."	What is one way to increase drone safety, according to Huber?	Onestop	Wed Oct 30 2019 16:17:49 GMT-0400 (Eastern Daylight Time)	1572470000000.0	11	reading_comprehension	1
Question 12/36	50318	r3908_2_Middle	11	Middle	0	3|2|0|1	Every child could have a toy and they played together.|They could have more toys than other children.|Some children were left out with no toys.|They had more friends to play with.	"When you were very young, you liked to play with your friends. Did you find that playtime was always more fun when everyone shared the toys? Everyone got a turn. No one was left out.\nThat's a life lesson that changes as you get older. As you grow up, you begin to understand that others have less than you do - in China and in the world. And that those of us who ""have"" things should help those who "" have less"" than we do. The idea of sharing _ \nAt your age, you can ""share"" with people in need in three ways.\n1. You can give them a part of your money. Many adults do that regularly.\n2. You can share items you no longer use, such as clothing and toys. You can pass them onto others who cannot buy them.\n3. You can help people by giving your time and your energy.\nThe last one is also called volunteering. Volunteering is about giving your time to take part in activities that will help others. Every year, many thousands of volunteers in the world give the most valuable gift of all. They give their time. They give their talent. They give of themselves. And they are enjoying it. Volunteering isn't just about work. It's about fun too.\n,."	What do children think was more fun when they played with friends?	RACE	Wed Oct 30 2019 16:17:49 GMT-0400 (Eastern Daylight Time)	1572470000000.0	12	reading_comprehension	1
Question 13/36	21414	os12_1_3_Ele	12	Ele	0	1|0|2|3	Because he found droppings|Because he spotted a wolf|Because he learned that the number of wolves in Poland doubled in 15 years|Because he managed to escape a wolf	"Robert Myslajek stops. Between two paw prints on a mountain path, the scientist finds what he is looking for. ""Droppings!"" he says happily. It is so rare to see a wolf that seeing droppings makes it a good day. But it is getting easier to see a wolf. There are now about 1,500 wolves in Poland. The number has doubled in 15 years. The wolf, the brown bear, the lynx and the wolverine are Europe's last large predator carnivores. Scientists from Britain, Germany and the Netherlands are coming here to find out how Poland has saved wolves who have a bad reputation even in fairy tales."	"Why was it ""a good day"" for Myslajek?"	Onestop	Wed Oct 30 2019 16:17:49 GMT-0400 (Eastern Daylight Time)	1572470000000.0	13	reading_comprehension	1
Question 14/36	53457	r7021_3_High	13	High	0	3|1|0|2	begin your preparation as early as possible|pay more attention to grades than to extracurricular activities|focus on only one scholarship application|get as much work experience as possible	Scholarship Application Tips in 2014 for college students\n*Before you apply\n1. Work hard to get good grades. Don't sweat about one bad grade, but always strive to do your best.\n2. Get involved, and stay involved, in extracurricular activities. Sports, clubs, drama, bands and orchestras-these often count toward a student's overall scholarship application evaluation. The same goes for paid (or unpaid) work experience.\n3. Begin your scholarship research early-by your sophomore or junior year of high school, if possible. Make special note of application deadlines, as they can vary from late summer to late spring.\n4. Apply for as many scholarships as you are eligible for-several smaller scholarships can add up to a lot of money.\n*During the application process\n1. Read the supplementary materials that come with scholarship application forms to better understand the program's focus (community service, subject interest). Try to answer the questions with the focus area in mind.\n2. Answer questions as they are asked. Don't go off the topic.\n3. If there is a financial component to the application, make sure you get accurate and complete information from all appropriate sources to ensure your eligibility.\n4. Take your time. Write down everything you can think of for each question, then set the application aside for a day so you can look everything over again before you send it off.\n5. Don't wait until the last minute to complete your application, especially if you are applying online. Computer systems can get clogged with the large volume of applicants hoping to submit their qualifications during the last few days and hours before a deadline.\n6. If a third party has to complete part of your application, such as providing a letter of recommendation, make sure you ask them early on and remind them as often as necessary to ensure they provide you with the necessary materials.\n7. Last but not least, review your application with your parents to make sure you haven't left out any important details.\nGood luck to the students applying for the 2014 scholarship programs!	Before you apply for a scholarship, it's best to  _  .	RACE	Wed Oct 30 2019 16:17:49 GMT-0400 (Eastern Daylight Time)	1572470000000.0	14	reading_comprehension	1
Question 15/36	29420	os11_3_2_Adv	14	Adv	0	1|2|3|0	She can usually keep the items she purchases|She is among the first to get to see new product ranges |She is paid between PS5 and PS20 per hour|She gets coupons for online shopping	"Shoppers are usually repaid any money they spend in the stores. ""I'm typically given between PS5 and PS20 to spend at each store, to assess the service I receive at the counter,"" says Laura, a 50-year-old mystery shopper from Devon, who has been paid to visit around 7,000 shops since 2001. The purchase usually has to be related to a service or a type of product that the retailer wants her to check. ""I'm always given a scenario, such as buying something from a specific department or a new product range, but, within that framework, I can often buy whatever I want - and keep it."""	What is one perk of Laura's job?	Onestop	Wed Oct 30 2019 16:17:49 GMT-0400 (Eastern Daylight Time)	1572470000000.0	15	reading_comprehension	1
Question 16/36	45597	r10065_1_High	15	High	3	1|0|2|3	they have different cultural backgrounds|they are short of skills and abilities|they often perform badly in college|they know nothing about American history	The SAT is one of two major tests for the entrance to American colleges and universities. The other test is called the ACT. More than 2 million students take the SAT yearly, including about 100,000 foreign students. The organization of the SAT will change the entrance test in 2016. The College Board announced that the new SAT will no longer test students on rarely used words. But it will include passages from American historical documents or from writings on freedom and human rights.\nThe College Board says words on the new test will be related to usage. Students will be asked to tell the meaning of words according to the context of the reading passages. Nigerian student Peace Umoru is in her first year at Howard University. She says the rarely used words are the hardest part for international students. The new test will be easier because of the reform.\nEddie West is with the College Board. He says the new test will better predict a student's performance in college. The changes are moving the test in a positive direction. The new SAT pays more attention to skills and abilities that students need to succeed. The addition of material about American historical documents could make the test harder for international students. After all, they live in different countries with different cultures. But it's a good chance for them to understand the Declaration of Independence or Martin Luther King's work, or anything else that might be tested.\nStudents from other countries, particularly those who did not grow up learning English, may feel it is more difficult. For them, the test is in a foreign language. But the College Board says it has formed a free, online educational service. Khan Academy will provide preparation material linked to the newly designed SAT.	The new SAT could be more difficult for international students because  _  .	RACE	Wed Oct 30 2019 16:17:49 GMT-0400 (Eastern Daylight Time)	1572470000000.0	16	reading_comprehension	1
Question 17/36	63503	r13592_3_High	15	High	0	0|1|2|3	15-Minute Reading Challenge|Tips for Reading English Books|Having a Coffee While You Read|Ways to Improve Reading Skills	My challenge for you is this: to read a book for 15 minutes every single day for a month.\nLet me explain a bit, by telling you where the challenge came from. I have many things in common with my dad, like music taste and sense of humor, but sadly reading isn't one of them. I can happily spend a whole day with a book, but my dad can't read a book for longer than about 5 minutes. He reads emails, websites and papers for work, but not books. He's busy so I think sitting down to read for just 15 minutes a day is a good way to relax and to introduce him to reading.\nMy dad is by no means the only person who avoids books. I know lots of people would rather relax on their computers or in front of the TV. Everyone is different and has their own interests, but I think there're lots of benefits to reading, which screen-based activities don't have.\nFirstly, it's better for your eyes. Looking at screens can be very stressful for you eye muscles, and clearly you should avoid looking at screens for an hour before bed, to get a good night's sleep.\nOne thing I personally love reading, is being transported to another world--I would often forget the time or things around me! Reading is a great way to switch off before you go to bed, because you think more about the world of the book, rather than the real world, so you can truly relax. I know you can be transported to a different world in a film or a TV show, but I think books do _ better.\nI also enjoy hearing what people are doing and finding out what they think. Reading gives me the chance to get to know hundreds of new people! It also teaches you to see things from other people's point of view, and understand other people's decisions or opinions. With a book, you can hear everything a character is thinking or feeling--you really can be inside someone else's head!\nSo give it a go! Take 15 minutes when you're waking up, going to bed, eating too much, or having a coffee. If you read a lot, why not try 15 minutes of an English book, or pass the challenge on to someone else? Good luck, and happy reading!	Which of the following can be the best title for the text?	RACE	Wed Oct 30 2019 16:17:49 GMT-0400 (Eastern Daylight Time)	1572470000000.0	17	reading_comprehension	1
Question 18/36	61468	r20723_2_High	16	High	0	3|0|1|2	somewhat interact with the students|ask and answer questions in turns|provide feedback to students in less time|make different facial expressions	"Teachers and textbooks  _ -- your future could be under threat from a quickly developing and very smart technology.\n     University of California researchers led by Jacob White hill recently programmed teaching robots to react to facial expression. Whitehill's achievement marked a major step forward in the way people could one day learn by establishing facial expression recognition in robot teachers.\n     The teaching robots or, Intelligent Tutoring Systems (ITS) are computer systems that provide personalized instruction and feedback to students without human intervention. The facial expression recognition allows a computer to react according to expressions a user makes.\n     He said that the system was an important development in improving learning systems.\n""Classical ITS typically have a somewhat rigid architecture of 'first I ask a questions then I wait for a responses then I talk some more; then I wait for another response.' Facial expression recognition, I believe, will allow the feedback from student to teacher to happen while the robot teacher is talking,"" Whitehill said.\n     Experts agree the latest developments in ITS open new possibilities for how people could learn. University of Memphis researcher, Dr Andrew Olney, who recently received a US$ I. 3 million grant to develop an ITS, said the key to future learning will be enabling interactive , one-on-one instruction.\n     ""The technology can benefit these more advanced learning scenarios ,"" he said.\n     Although robot teachers of varying abilities have existed for more than 30 years, ITS developments such as Whitehill's and Olney's are pushing beliefs that robots could soon be as effective as-- if not more effective than human teachers.\n     ""The ITS which have been developed are already better teachers than people who have no experience,"" Olney said.\n     So, what is the future for today's teachers, classrooms, and textbooks?"	Compared with classical ITS, developed ITS can	RACE	Wed Oct 30 2019 16:17:49 GMT-0400 (Eastern Daylight Time)	1572470000000.0	18	reading_comprehension	1
Question 19/36	27859	r4282_3_Middle	17	Middle	0	1|3|0|2	China and South Korea|the UK and the US|China and America|South Korea and Japan	"Have you heard of EXO? EXO is a Chinese-South Korean boy band with 12 people. They are in two teams: EXO-M and EXO-K. There's even a ""competition"" between the two teams. ""I will not call it a competition. It's always in good fun,"" said Sehun of EXO-K.\nHere comes the new superstar! His name is Austin Mahone. The 18-year-old is a pop singer in the US. His success story is just like that of Justin Bieber. Last month Mahone's new album The Secret came out. Maybe it's a good chance for us to know more about him and his music.\nForget about Super Junior. We now have TFBOYS. TFBOYS is a popular Chinese boy band made up of three members. They are Wang Junkai, 14, Wang Yuan, 13, and Yi Yangqianxi, 13. The boys are all junior middle school students. Their songs are full of positive energy  . In their latest album, they call on teenagers not to be afraid of dreaming big."	Members of EXO come from   _  .	RACE	Wed Oct 30 2019 16:17:49 GMT-0400 (Eastern Daylight Time)	1572470000000.0	19	reading_comprehension	1
Question 20/36	66397	r17934_3_High	18	High	0	3|2|0|1	Christopher Hirata|William|Terence Tao|Albert Einstein	"Born in America in 1898, William was an extraordinary boy, gifted with an amazing IQ between 250 and 300. The genius went to a grammar school when he was only 6 years old and graduated just within 7 months. At the age of 11, he became the youngest student of the Harvard University. He graduated with high scores at the age of 16 and entered Harvard Law School at 18.\n    Gifted with an amazing IQ between 220 and 230, Terence Tao makes it to this list of the people with the highest IQ in the world. Born in Adelaide, Australia in 1975, this genius first displayed his incredible intelligence at a mere age of 2, when he managed to solve basic arithmetic questions on his own. At the age of 16, he graduated with both Master's and Bachelor's degrees at the Flinders University. He has been considered as ''Mr. Fix it "" by Charles Fefferman, who is a professor of Mathematics at Princeton University, and many other mathematicians want to interest him in their problems.\n    This 31-year-old Japanese-American astrophysicist lands him third in this list. At the age of 12, Christopher Hirata already worked on college-level courses, around the time most of us were just in the 7th grade. At the age of 13, this gifted kid became the youngest American to have ever won the gold medal in the International physics Olympiad.\nAt the age of 16, he was already working with NASA on its project to conquer planet Mars. After he was awarded the Ph.D. at Princeton University, he went back to California Institute of Technology.\n    The next person with very high IQ is Albert Einstein. With an IQ between 160 and 190, Albert Einstein is the genius behind the theory of relativity, which has had great impact on the world of science. He possessed such an amazing ability that after his death, researchers were eager to preserve and make research on his brain in search for clues to his exceptional brilliance, which to this day, has remained a mystery. \nks5u"	Who once worked on the project to conquer planet Mars?	RACE	Wed Oct 30 2019 16:17:49 GMT-0400 (Eastern Daylight Time)	1572470000000.0	20	reading_comprehension	1
Question 21/36	59038	r1701_3_Middle	19	Middle	0	2|1|3|0	The writer was too busy that weekend to go find the dog's owner.|German was fond of living with the family.|The writer felt safe and protected with German around.|The dog stayed until the writer was strong enough to go on alone.	"After my husband died, my world crashed around me. My six children were 10, nine, eight, six, three and 18 months, and I was overwhelmed with the responsibilities of earning a living, caring for the children and simply _ .\nI was fortunate to find a wonderful housekeeper to care for the children during the week, but from Friday nights to Monday mornings, the children and I were alone, and frankly I was uneasy. Every unusual noise or any late-night phone call filled me with fear. I felt incredibly alone.\nOne Friday evening I came home from work to find a big beautiful German shepherd  on our doorstep. It was obvious he wanted to make the house his home. The children took an instant liking to ""German"" and begged me to let him in. I agreed to let him sleep in the basement until the next day. That night I slept peacefully for the first time in many weeks.\nThe following morning we made phone calls and checked lost-and-found ads for German's owner, but with no results. Saturday night he was still with us.\nOn Sunday I had planned to take the children on a picnic. Since I thought it best to leave German behind in case his owner came by, we drove off without him. When we stopped to get gas at a local station, we were amazed to see German racing to the gas station after us. He stayed again Sunday night.\nMonday morning I let him out for a run while the children got ready for school. He didn't come back. We thought we'd never see him again. On Friday evening, German was back again. We took him in, and again he stayed until Monday morning, when our housekeeper arrived. It went like this for almost 10 months. We looked forward to his coming each Monday morning he left home.\nEach week, between German's visits, I grew a little braver, but every weekend I enjoyed his company. Then one Monday morning we patted his head and let him out for what turned out to be the last time. He never came back."	Which of the following is Wrong according to the article?	RACE	Wed Oct 30 2019 16:17:49 GMT-0400 (Eastern Daylight Time)	1572470000000.0	21	reading_comprehension	1
Question 22/36	30324	os6_3_3_Adv	20	Adv	0	3|1|0|2	They had access to reindeer|They did not wear clothing|Their culture valued preserving bodies in caves|They hunted with sophisticated weapons	The Spanish team started their work after a group of cavers stumbled upon two skeletons in a deep and complex cave system high up in the Cantabrian Mountains of northwest Spain in 2006. The human remains, which belonged to two men in their early 30s, had been extremely well preserved by the cool environment of the cave. Carbon dating put the remains at around 7,000 years old, before farming had swept into Europe from the Middle East. The timing fitted with ancient artifacts found at the site, including perforated reindeer teeth that were strung and hung from the people's clothing.	What can be inferred about the Mesolithic cavemen based on items found in the cave?	Onestop	Wed Oct 30 2019 16:17:49 GMT-0400 (Eastern Daylight Time)	1572470000000.0	22	reading_comprehension	1
Question 23/36	24147	r5870_3_Middle	21	Middle	0	0|1|3|2	It's about No Housework Day.|It's about the daily housework.|It's about our duty and right.|It's about some national holiday.	Are you always unwilling to do housework and cleaning for no reason? Well, you will be happy today. Today is No Housework Day. It's time to forget about housework and be relaxed.\nNo Housework Day is always on April 7th. It is your chance to do anything, except housework. Better still, have someone else do housework for a day. Housework is a daily and endless job and most people think it's boring to do housework. I have many friends and their wish is to stay away from housework. In fact, their wish can never come true.\nDo you know how to celebrate No Housework Day? Well , there are two different ways.\nIf you usually do the housework around the house, forget it on this day. Instead, kick back and enjoy the day. Relax and do anything, except housework.\nIf you never do housework, you can do it for your family. It gives your parents a break from the housework. And, you just might get a chance to know how much housework your parents need to do every day.	What's the main idea of the passage?	RACE	Wed Oct 30 2019 16:17:49 GMT-0400 (Eastern Daylight Time)	1572470000000.0	23	reading_comprehension	1
Question 24/36	19831	os16_3_3_Ele	22	Ele	0	3|1|2|0	That Vienna is safer than other places|That Vienna is the safest city in the world|That US cities are not very safe|That nothing is more important than safety	"US cities do badly in the study, mostly because of worries about personal safety and crime. The US city in top position is San Francisco, in 28th position; Boston is 34th. ""You don't realize how safe Vienna is until you go abroad,"" said Hartlauer. ""We also have terrific public transport - the underground trains run 24 hours at weekends and it only costs EUR1 per trip."""	What did going abroad make Hartlauer realize?	Onestop	Wed Oct 30 2019 16:17:49 GMT-0400 (Eastern Daylight Time)	1572470000000.0	24	reading_comprehension	1
Question 25/36	52653	r2765_3_High	23	High	0	3|2|1|0	solid, liquid and gas|solid, vapour, snow|drops of water, blocks of ice and crystals of water|ice, snow and air	Water is very important to living things. Without water there can be no life on the earth. All animals and plants need water. Man also needs water. We need water to drink, to cook our food and to clean ourselves. Water is needed in offices, factories and schools. Water is needed everywhere.\nThere is water in seas, rivers and lakes. Water is found almost everywhere. Even in the desert part of the world, there is some water in the air. You can not see or feel it when it is a part of the air. The water in the seas, rivers and lakes is a liquid, the water in the air is a gas, and we call it water vapour  .\nClouds are made of water. They may be made of very small drops of water. They may also be made of snow crystals . Snow crystals are very very small crystals of ice. Ice is frozen water. It is a solid. There can be snow and ice everywhere in winter.\nWater may be a solid or a liquid or a gas. When it is a solid, it may be as hard as a stone. When it is a liquid, you can drink it. When it is a gas, you can not see or feel it.	Water has three states . They are  _	RACE	Wed Oct 30 2019 16:17:49 GMT-0400 (Eastern Daylight Time)	1572470000000.0	25	reading_comprehension	1
Question 26/36	35412	r1446_3_High	24	High	0	3|0|2|1	The care and proper selection of dogs for families.|Different breeds of dogs.|Responsibility for seeing that dogs are properly cared for.|Different kinds of books about dogs.	Is your family interested in buying a dog? A dog can be a pleasant companion to your family, but if you choose the wrong kind of dog , you will have a lot of troubles.\nFamilies should sit down and discuss the possible problems before buying a dog. Even if the children in your family are the ones who want the dog, the parents are the ones who are really responsible for seeing that the animal is properly cared for. If you don't know much about dogs, it is a good idea to go to the library for books about different kinds of dogs, and books about how to train a young dog. In reading about the different breeds you should know that a dog described as very alert may be too active. When a book describes a dog as an excellent hunting dog, it probably means that the dog won't be happy living in a small house. Dog breeds vary in popularity as the years go by. One of the most popular dogs these days is the German shepherd. This is because it provides protection as well as companionship. The family should be warned that these dogs grow up to be very big, and may be too powerful for children to control. If space is limited, a toy dog may be a good choice. These dogs are very small and easy to train. They don't need to be walked daily, since they can exercise in the home.	Which is the best topic of the passage?	RACE	Wed Oct 30 2019 16:17:49 GMT-0400 (Eastern Daylight Time)	1572470000000.0	26	reading_comprehension	1
Question 27/36	21509	os6_2_2_Ele	25	Ele	0	0|3|1|2	She found them to be surprising|They supported her previous ideas|They show how humans developed better immune systems to deal with infections from farm animals|They describe the appearance of the Mesolithic man with unprecedented accuracy	"The invention of farming brought humans and animals much closer and humans probably developed stronger immune systems to fight infections from the animals. But the change to humans' immune systems may not be as big as scientists thought - tests on the hunter-gatherer's DNA found that he already had genes that made his immune system strong. Some of these genes still exist in modern Europeans today. ""Before we started this work, I had some ideas of what we were going to find,"" said Carles Lalueza-Fox, who led the study at the Institute of Evolutionary Biology in Barcelona. ""Most of those ideas turned out to be completely wrong."""	What does Lalueza-Fox say about the study results?	Onestop	Wed Oct 30 2019 16:17:49 GMT-0400 (Eastern Daylight Time)	1572470000000.0	27	reading_comprehension	1
Question 28/36	36030	r23109_2_High	26	High	0	2|0|1|3	The big smile the old lady gave him.|The opportunity that he helped the old lady.|The words the old lady said to him.|The warm handshake the old lady gave him.	"I was at a busy traffic crossing waiting to cross to the other side. There was a family--a man, his wife and an old lady, waiting to cross with me.\nThen, the light turned green and all of us walked quickly across the road. The light lasted very short, and changed into red in no time. I noticed that both the man and his wife had crossed along with me and the old lady was left behind. I quickly realized what happened.\nWhen the light turned dreen again, I ran over to the other side, offered the old lady my right hand and we quickly walked together to the other side of the road. I used my left hand to stop any oncoming   traffic so that even if the crossing signal turned red, we cuold make it to the other side safely. In the meantime, both the man and his wife realized that they had left the old woman behind and they ran back.. The old lady was in tears and told me, ""Young man, you are more caring   than my son,"" and then gave me a warm handshake  . The man and woman were sorry about what happened and also thanked me. Before leaving, the old lady gave me a big smile, which I have cherished   even to this day. She kept waving and waving until we couldn't see each other any more."	What does the auther cherish to this day ?	RACE	Wed Oct 30 2019 16:17:49 GMT-0400 (Eastern Daylight Time)	1572470000000.0	28	reading_comprehension	1
Question 29/36	19966	os3_5_1_Ele	27	Ele	0	0|1|2|3	He is not willing to give any money back|Nothing; in fact, he thinks that the banks are the ones that owe him money|He is willing to return money to banks that give loans to social movements such as the Indignados|He hasn't decided yet	In today's Spain, thousands of people support the anti-capitalist movement and groups such as the Indignados. Duran says he does not want to give back the money to the banks but he can offer them something. He learned a lot in the years when he was taking loans out dishonestly, so he can show the banks how they can improve things for people in general and for bank workers.	How much money is Duran willing to return to the banks?	Onestop	Wed Oct 30 2019 16:17:49 GMT-0400 (Eastern Daylight Time)	1572470000000.0	29	reading_comprehension	1
Question 30/36	24742	os10_3_1_Ele	28	Ele	0	2|1|3|0	Fewer tourists, as indicated by the small number of reservations for August|More tourists, as all the hotels are already fully reserved for August|Fewer tourists, since tourism is more expensive now that the island's tax break has ended|More tourists, since the weather is forecasted to be good	"Kakali has asked the government and a major Greek bank to install an ATM, and this should arrive soon. But tourism is the main business on the island, and she feels the ATM may come too late for this season. ""We have almost no reservations in August, when usually we are full."" But there is an even bigger crisis ahead - the government has said it will end a tax break for islands."	How many tourists will likely visit the island this season compared to previous years?	Onestop	Wed Oct 30 2019 16:17:49 GMT-0400 (Eastern Daylight Time)	1572470000000.0	30	reading_comprehension	1
Question 31/36	27932	os15_4_2_Adv	29	Adv	0	0|2|1|3	Return it to a box of lost-and-found items|Take out PS5 and leave it where they found it|Discuss what they would do with it in an interview|Seek out the original owner and return it	The experiment carried out by Anderson and his colleagues involved 180 students and employees at Lancaster University, of which half were told to tell the truth and half to lie. They were each paid PS7.50 for their participation in the 70-minute experiment, involving two tests. Some were interviewed about a computer game Never End, which they played for seven minutes, while others lied about playing it, having only been shown notes about it. The second test involved a lost wallet containing PS5. Some were asked to bring the wallet to a lost-and-found box while others hid it and lied about it.	What were some people supposed to do with the wallet?	Onestop	Wed Oct 30 2019 16:17:49 GMT-0400 (Eastern Daylight Time)	1572470000000.0	31	reading_comprehension	1
Question 32/36	46814	r1361_3_Middle	30	Middle	0	2|1|0|3	there were many people to drink with|there was bright blue sea|there was endless blue sky|there were lots of lovely restaurants	When my wife left this world, I chose to travel in Antigua looking for a peaceful place to rest my old body. Not quite old and weak, I felt I wanted something more than the usual hotel room with 24-hour room service.\nI decided this year to try something completely new and booked myself a private holiday home in Antigua. This was the best decision I had ever made, as there was plenty to do, plenty to see and lots of lovely restaurants to visit. There was a private swimming pool, and a cool, wide yard where I ate my breakfast most mornings.\nAntigua has to be one of the loveliest places on earth to spend a holiday. The bright blue sea and the endless blue around the beach areas proved to be an excellent place for me to spend the long afternoons.\nI had to hurry to do what I wanted to do before the holiday came to an end. I managed to visit the Sugar Mill and Shirley Heights on my last two days and yet found myself wondering whether I could extend for a few more days.\nI rented a boat and came home after a day's sailing, refreshed, looking forward to dinner. Everything is so pleasant on these beautiful islands, swept by the trade winds and warmed by the sun for so many summer months. The food just tasted better to me, perhaps because I was having such a great holiday. There was always someone to have a drink with---- that's what I liked most.	The most important reason for the writer to travel in Antigua was   _  .	RACE	Wed Oct 30 2019 16:17:49 GMT-0400 (Eastern Daylight Time)	1572470000000.0	32	reading_comprehension	1
Question 33/36	33622	os18_4_2_Adv	31	Adv	0	3|2|1|0	The workers|Miesen and Dundas|Odile Gakire Katese|A local family	"Inzozi Nziza was opened by the theater director Odile Gakire Katese. She met Alexis Miesen and Jennie Dundas, co-founders of Blue Marble Ice Cream in Brooklyn, New York, and formed a partnership with them to open the shop in 2010. ""An ice-cream shop, Katese proposed, might help to put the human pieces back together by rebuilding spirits, hopes and family traditions,"" Miesen says. At the start, Miesen and Dundas owned the shop in partnership with its staff and had shares in the business, which is a cooperative and non-profit. They did not set financial targets, but waited for 18 months before they transferred their shares to the women, who had by then proved their business credentials."	Who had all the shares of the business 18 months after the opening?	Onestop	Wed Oct 30 2019 16:17:49 GMT-0400 (Eastern Daylight Time)	1572470000000.0	33	reading_comprehension	1
Question 34/36	22340	os14_7_3_Ele	32	Ele	0	1|0|3|2	To detect the presence of the novel elements|To determine the right time to crash nuclei into one another|To see if the new elements could be put to practical use|To calculate the half-life of the new elements	"To discover the elements, researchers at the three labs crashed lighter nuclei into one another and looked for the radioactive decays that should come from the new elements. 113 and 115 are probably metals. 117 could be a metalloid - a material with some metallic characteristics. The fourth element, 118, may be a gas. Paul Karol, chair of the IUPAC panel that checked the elements, said: ""It will be a long time before we can find practical uses for the new elements."""	Why did researchers look for radioactive decays?	Onestop	Wed Oct 30 2019 16:17:49 GMT-0400 (Eastern Daylight Time)	1572470000000.0	34	reading_comprehension	1
Question 35/36	66671	r9414_1_High	33	High	3	0|3|1|2	Mr. Jekyll, a well-known doctor|Mr. Utterson, an upright lawyer|Doctor Lanyon, Mr. Jekyll's friend|Mr. Hyde, the short man mentioned in the passage above	"'Well,' began Enfield, 'I was coming home about three o'clock on a black winter morning, when suddenly I saw two people. The first was a short man who was walking along the street, and the second was a little girl who was running as fast as she could. Well, the two bumped into each other and the child fell down. Then a terrible thing happened. The man calmly walked all over the child's body with his heavy boots, and left her screaming on the ground. It was an inhuman thing to do. I ran after the man, caught him and fetched him back. There was already a small crowd around the screaming child. The man was perfectly cool, but he gave me a very evil look, which made me feel sick in my stomach. The child's family then arrived, and also a doctor. The child had been sent to fetch the doctor for a sick neighbor, and was on her way home again.\n'""The child is more frightened than hurt,"" said the doctor -- and that, you would think, was the end of the story. But, you see, I had taken a violent dislike to the short man. So had the child's family -- that was only natural. But the doctor, who seemed a quiet, kind man, was also looking at our prisoner with murder in his eyes.\n'The doctor and I understood each other perfectly. Together we shouted at the man, and told him we would tell this story all over London so that his name would be hated.\n'He looked back at us with a proud, black look. ""Name your price,"" he said.\n'We made him agree to a hundred pounds for the child's family. With another black look, the man led us to that door over there. He took out a key and let himself into the building. _ he came out and handed us ten pounds in gold and a cheque for ninety pounds from Coutts's Bank. The name on the cheque was a well-known one.\n'""See here,"" said the doctor doubtfully, ""it isn't usual for a man to walk into an empty house at four in the morning and come out with another man's cheque for nearly a hundred pounds.""\n'""Don't worry,"" said the man with an ugly look, ""I'll stay with you until the banks open, and change the cheque myself.""\n'So we all went off, the doctor and the prisoner and myself, and spent the rest of the night at my house. In the morning we went together to the bank. Sure enough, the cheque was good, and the money was passed to the child's family.'"	The cheque was written by   _  .	RACE	Wed Oct 30 2019 16:17:49 GMT-0400 (Eastern Daylight Time)	1572470000000.0	35	reading_comprehension	1
Question 36/36	39525	r1678_2_Middle	33	Middle	0	3|1|2|0	we must have a strong desire to live when we are in danger.|It's not interesting to sail around the world.|Fish in the sea are so dangerous.|Nobody knows when we will die.	It is not easy for people to sail   around the world in quite small boats. Sometimes the weather gets bad. Accidents can happen easily and quickly.\nOne family once had an accident. A big fish swam under their boat and bit holes in it. Sea water came in and the boat soon went down. Luckily these people had another small boat----a lifeboat, so they all got into the lifeboat. They lived in the boat for many days. They ate and slept, and always hoped. At last people in a ship saved them.\nHow do people live in a very small lifeboat for a long time? They must be strong in every way, they must have a hope, and they must have a strong desire to live. People cannot drink seawater. If they drink a lot of sea water, they will quickly die. They must catch rainwater and drink it. They must also catch fish and birds for food. Lifeboats do not often carry cookers. So people can not cook their food in the lifeboats. Raw   fish and birds are not very nice but they are their only food. They must eat raw food, or they will die.	From the article   we can know that   _  .	RACE	Wed Oct 30 2019 16:17:49 GMT-0400 (Eastern Daylight Time)	1572470000000.0	36	reading_comprehension	1
Question 1/36	80991	os4_3_3_Adv	0	Adv	0	3|1|2|0	Examine facilities like bridges and telephone lines|Fly more safely around certain dangerous areas|Identify interfering radio signals and antennas|Identify mountains and hills	"One major problem is maintaining radio contact with a drone and planning for what happens if that contact breaks. ""If you have an off-the-shelf UAV (unmanned aerial vehicle), it'll just keep going and crash into the ground,"" said roboticist Daniel Huber. ""Technologically, most of the things that are needed for this are in place,"" said Huber. He is working on a program that proposes using drones to inspect infrastructure - pipelines, telephone lines, bridges and so on. ""We've developed an exploration algorithm where you draw a box around an area and it'll autonomously fly around that area and look at every surface and then report back."""	What will Huber's program enable drones to do?	Onestop	Wed Oct 30 2019 18:47:52 GMT-0400 (EDT)	1572480000000.0	1	reading_comprehension	2
Question 2/36	88674	r873_2_High	1	High	0	1|0|2|3	It's melting.|It's freezing.|It's hardening.|It's expanding.	Due to climate change, Arctic ice is breaking up earlier in the spring, and its area is decreasing. This is creating problems for polar bears that make their homes off northern Alaska and in Hudson Bay.\nPolar bears off Alaska normally hunt and raise their young on ice sheets that float on the ocean. But as the ice has melted, the polar bears have been forced to spend more time on land. There, they have begun to frequent beaches, feeding on the remains of whales caught by native hunters. For polar bears, this food is less nutritious than seals that they normally catch on ice sheets. The shrinking  ice has also forced more polar bears into the ocean. In the past, they only had to swim short distances between ice sheets. But as the ice has shrunk, polar bears have been forced to swim longer and longer distances in the open ocean. This poses a severe danger during rough weather, and an increasing number of drowned polar bears have been observed.\nIn Hudson Bay, the ice breaks up three weeks earlier in the spring now than it did 20 years ago. Polar bears on Hudson Bay fast  during the summer, waiting for ice to form in the fall to hunt. Every year, the summer gets longer, and the bears get skinnier. Over the past 25 years, the average weight of the female bears has dropped 68 kg. This loss affects their ability to reproduce, and already the number of births has dropped 15 percent. Unless the bears can learn to survive these climate changes, these giants of the ice may one day disappear.	What is Arctic ice doing earlier each year?	RACE	Wed Oct 30 2019 18:47:52 GMT-0400 (EDT)	1572480000000.0	2	reading_comprehension	2
Question 3/36	26664	os14_4_2_Ele	2	Ele	0	0|2|3|1	Try to discover additional new elements|Further look into the element they discovered|Finally move beyond completing the seventh row of the periodic table|Figure out uses for the newly uncovered elements	"In 2012, scientists chose the formal name flerovium for element 114, after the Flerov Lab at Dubna's Joint Institute of Research. And they chose the formal name livermorium for element 116, after the Lawrence Livermore Lab in the US. The elements were discovered there. Kosuke Morita, who led the research at RIKEN, said his team now planned to ""look into the undiscovered element 119 and beyond."" Jan Reedijk of IUPAC said: ""Chemists want to see the periodic table finally completed down to the seventh row."""	What does the RIKEN research team plan to do now?	Onestop	Wed Oct 30 2019 18:47:52 GMT-0400 (EDT)	1572480000000.0	3	reading_comprehension	2
Question 4/36	86869	r1598_3_Middle	3	Middle	0	0|2|3|1	B|A|AB|O	A person has been badly injured in a car accident. It is necessary to give him a transfusion   because he has lost much blood in the accident. However, special care must be taken in selecting new blood for him. If the blood is too different from his own, the transfusion can kill him.\nThere are four basic blood groups: A, B, AB and O. A single test can tell us a person's blood group. Everybody is born with one of these four blood groups. People's blood group, like hair colour, is inherited   from parents.\nBecause the substances contained in each group are different, transfusion must be given carefully. Basically, A and B cannot be mixed. A and B cannot receive AB, but AB may receive A or B. O can be given to any other group, so it is often called the universal donor. On the contrary, AB is sometimes called the universal recipient  . However, before being given the transfusion, patients usually receive only salt or plasma   until their blood can be matched as exactly as possible. In this way, it is possible to avoid any bad results of the transfusion.\nThere is a relationship between our blood groups and our nationalities. Among the Europeans, about 42 percent are blood group A while 45 percent are blood group O. The rarest is blood group AB. However, some American Indian groups are nearly 100 percent blood group O.	The third most common blood type among the Europeans is   _  .	RACE	Wed Oct 30 2019 18:47:52 GMT-0400 (EDT)	1572480000000.0	4	reading_comprehension	2
Question 5/36	59019	r5005_3_Middle	4	Middle	0	0|2|3|1	money doesn't always bring happiness|money always brings happiness|everything can be bought with money|only rich always bring happiness	Happiness is for everyone. You don't need to care about those who have beautiful houses with large  gardens and swimming pools or those who have nice cars and lots of money and so on. Why? .Because  those who have big house may often feel lonely and those who have cars may want to walk on the country roads at their free time.\nIn fact, happiness is always around you if you put your heart into it. When you are in trouble at school, your friends will help you; when you study hard at your lessons, your parents are always taking good care of your life and your health; when you get success, your friends will say congratulations to you; when you  do something good to others, you will feel happy, too.All these are your happiness. If you notice them, you can see that happiness is always around you.\nHappiness is not the same as money.It is a feeling of your heart. When you are poor, you can also say you are very happy, because you have something else that can't be bought with money. When you meet with difficulties, you can say loudly you are very happy, because you have bad luck. As the saying goes, life is like a _ door. When it closes, it also opens.  If you take every chance you get,  you  can be a happy and lucky person.	"We say ""Happiness is not the same as money."" because  _   ."	RACE	Wed Oct 30 2019 18:47:52 GMT-0400 (EDT)	1572480000000.0	5	reading_comprehension	2
Question 6/36	106151	r13418_1_High	5	High	0	2|3|0|1	she made great contributions to refugees despite leaving her homeland|she suffered a lot more than other refugees who fled to Pakistan|she was the kindest person all over the world|she witnessed the cruelest event when she was in Afghanistan	"Aqeela Asifi, who fled to Pakistan as a young woman, has spent her life teaching other Afghan refugees.\nFor her efforts, Ms. Asifi, who is 49, has won the 2015 UNHCR Nansen Refugee Award. She also gets $100,000 to help pay for her education projects. The UNHCR Nansen Refugee Award honors extraordinary service to people who have been forced from their homes. Eleanor Roosevelt, Graca Machel and Luciano Pavarotti are some of the other winners of the award.\nAsifi faced many problems in Afghanistan before she fled to Pakistan. Resources were limited and education for women was discouraged. However, in Pakistan, the 49-year-old was able to bring change to her conservative Afghan community. She persuaded parents to send their daughters to school in a tent at the Kot Chandana refugee village. The village was in the Punjab Province of Pakistan.\nSince then, Ms. Asifi has guided more than a thousand refugee girls through their primary education. ""When I began my mission to educate Afghan girls, I could not have imagined that one day it will win me this award. I cannot express my happiness,"" she told VOA.\nMs. Asifi was a teacher in Kabul when she fled with her family in 1992. ""In Afghanistan I was teaching both boys and girls,"" she told VOA. ""When I left Afghanistan and ended up in this refugee village with my family, I was saddened to find out there were no facilities here, particularly for women and girls."" They made their home in the distant refugee community in Kot Chandana. There she began teaching a small number of students in her tent. She made teaching materials by hand.\nHer tent school has led to the opening of several permanent schools in the village. These schools teach more than one thousand children. Support from the UNHCR, local government, and non-governmental organizations helped make these new schools possible.\nMs. Asifi is a mother of six children. She has worked hard to pay for their education. She spends almost all her income to pay her son's tuition to study engineering at Kabul University.\nBut seeking higher education for her four daughters is difficult. There is not enough money or secondary schools for girls in the village.\nThe Afghan teacher hopes more and more children will receive an education in Afghanistan. She hopes her home country becomes better known for higher levels of education, instead of war. ""I want my goal to be introduced in parts of Afghanistan where conservative traditions and customs still prevent parents from sending their daughters to outdoor schools,"" she said."	According to the passage, Asifi was able to win the 2015 UNHCR Nansen Refugee award mainly because  _  .	RACE	Wed Oct 30 2019 18:47:52 GMT-0400 (EDT)	1572480000000.0	6	reading_comprehension	2
Question 7/36	22986	os18_4_3_Adv	6	Adv	0	1|3|2|0	Alexis Miesen and Jennie Dundas|Odile Gakire Katese|A partnership of ice cream store workers|A group of social activists	"Inzozi Nziza was opened by the theater director Odile Gakire Katese. She met Alexis Miesen and Jennie Dundas, co-founders of Blue Marble Ice Cream in Brooklyn, New York, and formed a partnership with them to open the shop in 2010. ""An ice-cream shop, Katese proposed, might help to put the human pieces back together by rebuilding spirits, hopes and family traditions,"" Miesen says. At the start, Miesen and Dundas owned the shop in partnership with its staff and had shares in the business, which is a cooperative and non-profit. They did not set financial targets, but waited for 18 months before they transferred their shares to the women, who had by then proved their business credentials."	Who founded Blue Marble Ice Cream?	Onestop	Wed Oct 30 2019 18:47:52 GMT-0400 (EDT)	1572480000000.0	7	reading_comprehension	2
Question 8/36	53937	r19912_2_High	7	High	0	2|1|0|3	They all provide free WiFi service.|They all have an outdoor pool.|They all equip the hotel rooms with cable TVs.|They all have a center for fitness.	Pingviman Hotel\nOffering an outdoor pool, Pingviman Hotel offers Thai-style rooms in Chiang Mai. Free WiFi is available through-out and a complimentary service takes guests to the Chiang Mai Night Bazaar. All rooms are equipped with a 48-inch flat-screen cable TV and DVD player.\nFacilities at this hotel include a business center, a fitness center and laundry services. There is also a tour desk and meeting facilities. \nWe speak your language!\nHotel Rooms:35\nArt Mai Gallery Nimman Hotel\nSituated in Chiang Mai's trendiest area, Art Mai Gallery Nimman Hotel Chiang Mai by Compass Hospitality boasts accommodation in a boutique hotel well-decorated with art works from the renowned local Thai artists. Free WiFi is offered all throughout the property.\nAt Art Mai Gallery Nimman Hotel, guests will find an outdoor pool, a fitness center and massage services. There is also a modern art collection for sale at the lobby area.\nHotel Rooms:79\nAt Chiang Mai\nAt Chiang Mai is a 2-minute walk from Sunday Walking Street. It offers rooms with a bathtub and free WiFi. Guests can relax by the pool or arrange sightseeing trips at the tour desk.\nStaff at the 24-hour front desk can help guests arrange shuttle service and laundry. A selection of international newspapers and board games is available for guests to enjoy.\nHome-style Thai and European dishes are served at the restaurant from 07:00 to 23:00 hrs.\nWe speak your language!\nHotel Rooms:37\nDe Chai The Colonial Hotel\nStylish colonial design is the trademark   of De Chai Hotel, with its indoor pool and free WiFi. Located along Thapae Road, it is a 5-minute walk from the Sunday Walking Street.\nFully air-conditioned and extra spacious, rooms at De Chai are equipped with 37-inch flat-screen TVs, DVD players and iPod docks. Beautiful city views can be enjoyed through the clear floor-to-ceiling windows. Free WiFi is available in all areas.\nChang Khlan is a great choice for travelers interested in shopping, night markers and markets.\nWe speak your language!\nHotel Rooms: 40	What's the similarity among the four hotels?	RACE	Wed Oct 30 2019 18:47:52 GMT-0400 (EDT)	1572480000000.0	8	reading_comprehension	2
Question 9/36	51472	os2_4_2_Adv	8	Adv	0	3|2|1|0	More research still needs to be done|People might buy the wrong product|He is afraid it will be used for conditions other than autism for which we don't yet have a treatment|Oxytocin requires a doctor's prescription	"""If our study is replicated, it suggests that oxytocin might treat something for which we don't have a treatment in autism, and that's the core social motivation,"" Pelphrey told the Guardian. He warned that it was too early to use oxytocin as a treatment for the social difficulties caused by autism and cautioned against buying oxytocin from suppliers online. ""We don't want them running out on the basis of this study or any other and trying oxytocin at home. There is no telling what they are buying. We are nowhere near thinking this is a ready treatment. It needs more follow-up research,"" said Pelphrey. ""This is an important new study in identifying changes in brain activity in key regions of the brain involved in social cognition in autism following oxytocin administration,"" said Simon Baron-Cohen, director of the Autism Research Center at Cambridge University."	What is one reason Pelphrey warns against buying oxytocin online?	Onestop	Wed Oct 30 2019 18:47:52 GMT-0400 (EDT)	1572480000000.0	9	reading_comprehension	2
Question 10/36	204776	r22251_3_High	9	High	2	1|2|3|0	The real love.|The thread of the quilt.|The beautiful scenery of the country road.|All the other members of the family.	"Love Is Just a Thread\n     Sometimes I really doubt whether there is love between my parents.Every day they are very busy trying to earn money to pay the high tuition for us.They don't act in the romantic ways that I read in books or I see on TV."" I love you"" is too luxurious for them to say .Sending flowers to each other on Valentine's Day is even more  _ .My father is easy to lose his temper, especially when he's very tired from the hard work.\n     One day, my mother was sewing a quilt.I silently sat beside her and asked her if there was love between them."" What?"" she replied, still doing her work.My mother stopped her work and raised her head with surprise.She didn't answer immediately.Then she bowed her head and continued sewing the quilt.I was in a great embarrassment and I didn't know what to do.But at last I heard my mother say the following words: "" Look at this thread.Sometimes it appears, but most of it disappears in the quilt.The thread really makes the quilt strong and durable.If life is a quilt, then love should be a thread.It can hardly be seen anywhere or anytime, but it's really there.Love is inside."" I listened carefully but I couldn't understand her until the next spring.\n      My father suddenly got sick seriously.My mother had to stay with him in the hospital for a month.When they returned from the hospital, they both seemed as if they had a serious illness.Every day in the morning and dusk, my mother helped my father walk slowly on the country road.It seemed they were the most harmonious couple.There were many beautiful flowers, green grass and trees, and the sun gently glistened  through the leaves.All of these made up the most beautiful picture in the world.When we were worrying about him, he said gently: "" I really like walking with your mom.I like this kind of life."" Reading his eyes, I know he loves my mother deeply.\n       Once I thought love meant flowers, gifts and sweet kisses.But from this experience, I understand that love is just a thread in the quilt of our life.Love is inside, making life strong and warm."	What made her father change so greatly?	RACE	Wed Oct 30 2019 18:47:52 GMT-0400 (EDT)	1572480000000.0	10	reading_comprehension	2
Question 11/36	74772	r23109_3_High	9	High	0	2|3|0|1	She was too old to walk quickly.|She wanted them to go first.|She didn't see the light changed.|She wanted them to walk with her.	"I was at a busy traffic crossing waiting to cross to the other side. There was a family--a man, his wife and an old lady, waiting to cross with me.\nThen, the light turned green and all of us walked quickly across the road. The light lasted very short, and changed into red in no time. I noticed that both the man and his wife had crossed along with me and the old lady was left behind. I quickly realized what happened.\nWhen the light turned dreen again, I ran over to the other side, offered the old lady my right hand and we quickly walked together to the other side of the road. I used my left hand to stop any oncoming   traffic so that even if the crossing signal turned red, we cuold make it to the other side safely. In the meantime, both the man and his wife realized that they had left the old woman behind and they ran back.. The old lady was in tears and told me, ""Young man, you are more caring   than my son,"" and then gave me a warm handshake  . The man and woman were sorry about what happened and also thanked me. Before leaving, the old lady gave me a big smile, which I have cherished   even to this day. She kept waving and waving until we couldn't see each other any more."	Why didn't the old lady cross the road with the others ?	RACE	Wed Oct 30 2019 18:47:52 GMT-0400 (EDT)	1572480000000.0	11	reading_comprehension	2
Question 12/36	81952	r118_2_Middle	10	Middle	2	0|3|2|1	sending prints by pigeon|Felton, California|the scientists|how to work with computers	The scientists from the Lockheed Space Company   work in Felton, California, with the help of a computer. But the computer is placed in Sunnyside, about 80 kilometers away. What the scientists input is sent by telephone lines to the computer, and after a time, copies of the designs are needed back in Felton as possible. Lockheed people have tried several ways of sending the prints  , but the most effective seems to be by pigeon  . Are pigeons really used to carry messages in these days? They are, and they send the prints faster and cheaper than any other way.\nHuman   messengers (persons carrying messages) are much more expensive and slower than the pigeons. The road to Felton goes through the mountains, and the driving is not easy. An electronic printout system  could do the work in Felton, but at a cost of 10 dollars a print. Pigeons carry the designs for about 1 dollar each.\nNow Lockheed people have ten pigeon messengers. The pigeons do the work, and they have made Lockheed more famous. You can often read the news about the pigeons in the newspapers around the world.	The story is mainly about_.	RACE	Wed Oct 30 2019 18:47:52 GMT-0400 (EDT)	1572480000000.0	12	reading_comprehension	2
Question 13/36	63697	os8_5_3_Ele	10	Ele	0	3|2|1|0	A combination of multiple different factors|The month in which they were born in|The opportunities offered by UK Sport during their youth|Primarily from their innate genetics	"UK Sport could not say if a majority of the 1,300 athletes it gives money to were born in November and October. Natalie Dunman, its head of performance, said that the differences shown in the new study were true for teenagers in junior-level competitions, but that the differences disappear before athletes were in adult competitions. She said: ""With adult athletes, there are many factors that make a champion and we don't think that month of birth is one of the key ingredients."""	Where does Dunamn believe the athletic abilities of adults are derived from?	Onestop	Wed Oct 30 2019 18:47:52 GMT-0400 (EDT)	1572480000000.0	13	reading_comprehension	2
Question 14/36	40735	os19_1_2_Ele	11	Ele	0	1|2|0|3	That coca should be protected|Bolivia does not allow the consumption of dangerous drugs|That it accepts the decisions of the 1961 Convention on Drugs|That consumption of drugs, but not their distribution, is legal	"A big international disagreement has started over the right of Bolivia's indigenous Indian tribes to chew coca leaves, the main ingredient in cocaine. This could have a significant effect on global drugs policy. Bolivia has received a special exemption from the 1961 Convention on Drugs, the agreement that controls international drugs policy. The exemption allows Bolivia's indigenous people to chew the leaves. Bolivia said that the convention was against its new constitution, adopted in 2009, which says it must ""protect native and ancestral coca"" as part of its cultural heritage and says that coca ""in its natural state ... is not a dangerous drug."""	What does Bolivia's constitution say?	Onestop	Wed Oct 30 2019 18:47:52 GMT-0400 (EDT)	1572480000000.0	14	reading_comprehension	2
Question 15/36	43040	os10_3_2_Ele	12	Ele	0	0|2|1|3	Islands will have to pay additional taxes|The government will end taxes for tourists visiting the island|The removal of ATMs from the island|The Greek government will shut down in the summer	"Kakali has asked the government and a major Greek bank to install an ATM, and this should arrive soon. But tourism is the main business on the island, and she feels the ATM may come too late for this season. ""We have almost no reservations in August, when usually we are full."" But there is an even bigger crisis ahead - the government has said it will end a tax break for islands."	"What is the upcoming ""bigger crisis""?"	Onestop	Wed Oct 30 2019 18:47:52 GMT-0400 (EDT)	1572480000000.0	15	reading_comprehension	2
Question 16/36	41822	r1470_3_Middle	13	Middle	0	3|2|0|1	politely|rudely|patiently|seriously	"Just as in face-to-face communication, there are some basic rules of behavior  that should be followed on the Internet. The basic rule is simple: treat others in the same way you would want to be treated. Imagine how you'd feel if you were in the other person's shoes.\nFor anything you're about to send: ask yourself, "" Would I say that to the person's face?"" If the answer is no, rewrite and reread. If someone in the chat room is rude to you, you needn't to fire back. You should either ignore  the person, or use your chat software to block their messages. Remember to respect the beliefs and opinions of others in the chat room.\nEveryone was new to the network once. Offer advice when asked by newcomers, as they may not be sure what to do or how to communicate. When someone makes a mistake, be kind about it. If you do decide to tell someone about the mistake, point it out politely. At the same time, if you find you are wrong, be sure to correct yourself and apologize to those that you have offended . You'd better not ask others questions about their age, sex and families. Unless you know the person very well, and you are both comfortable with sharing personal information, or don't ask such questions."	You should point out someone's mistake   _  .	RACE	Wed Oct 30 2019 18:47:52 GMT-0400 (EDT)	1572480000000.0	16	reading_comprehension	2
Question 17/36	42259	os9_2_1_Adv	14	Adv	0	0|1|3|2	10-year-olds naturally wake up earlier than 18-year-olds|18-year-olds naturally wake up earlier than 10-year-olds|Both children and teenagers would benefit from a school day that starts at 11am or later|People's natural wake-up times depends on the time they go to bed	"It follows a paper, published in 2014, in which he noted that, when children are around ten, their biological wake-up time is about 6.30am; at 16, this rises to 8am; and, at 18, someone you may think of as a lazy teenager actually has a natural waking hour of 9am. The conventional school starting time works for 10-year-olds but not 16- to 18-year-olds. For the older teenagers, it might be more sensible to start the school day at 11am or even later. ""A 7am alarm call for older adolescents,"" Kelley and his colleagues pointed out in the paper, ""is the equivalent of a 4.30am start for a teacher in their 50s."""	What does Kelley state about people's natural wake-up times?	Onestop	Wed Oct 30 2019 18:47:52 GMT-0400 (EDT)	1572480000000.0	17	reading_comprehension	2
Question 18/36	50743	os13_4_2_Adv	15	Adv	0	3|1|0|2	Some prisoners refuse or are unable to change|Most prisoners have changed|Prisoners often volunteer to support other offenders|Prisoners behave fundamentally differently than other people	"One strong reason for the drop in prison numbers might be the amount of post-prison support available in Sweden. A confident probation service - a government agency - is tasked not only with supervising those on probation but is also guaranteed to provide treatment programs for offenders with drug, alcohol or violence issues. The service is assisted by around 4,500 lay supervisors - members of the public who volunteer to befriend and support offenders under supervision. ""In Sweden, we believe very much in the concept of rehabilitation, without being naive of course,"" says Gustafsson. ""There are some people who will not or cannot change. But, in my experience, the majority of prisoners want to change, and we must do what we can to help to facilitate that. It is not always possible to achieve this in one prison sentence."""	What is something Gustafsson says about prisoners' behavior?	Onestop	Wed Oct 30 2019 18:47:52 GMT-0400 (EDT)	1572480000000.0	18	reading_comprehension	2
Question 19/36	60139	os20_3_1_Adv	16	Adv	0	0|1|3|2	More pressure on farming resources|One billion people will not have enough food|The level of greenhouse gases will increase by 35%|Food quality will decrease	Over the next 30 years, the planet's human population will increase to nine billion. Already one billion people do not get enough food. The increase will mean more pressure on agricultural land, water, forests, fisheries and biodiversity resources, as well as nutrients and energy supplies. The cost of meat is rising, not just in terms of hard cash but also in terms of the amount of rainforest that is destroyed for grazing or to grow feedstuff for cattle. There is also the issue of methane excreted by cows. The livestock farming contribution, in terms of greenhouse gas emissions, is enormous - 35% of the planet's methane, 65% of its nitrous oxide and 9% of the carbon dioxide.	What will result from an increase in human population in the future?	Onestop	Wed Oct 30 2019 18:47:52 GMT-0400 (EDT)	1572480000000.0	19	reading_comprehension	2
Question 20/36	21666	os12_3_3_Ele	17	Ele	0	1|3|2|0	The western Carpathian mountains|The whole country of Poland|Most of Poland's major forests|Forests with no human population	"Myslajek says only the need to save forests and control the wild animal population can save Europe's wild carnivores, especially the unpopular wolf. ""Natural predators balance the ecosystem. They reduce the number of herbivores, which allows trees to grow tall for birds to nest in."" The ban on wolf hunting in the western Carpathian mountains became law in 1995 and in the whole of Poland in 1998. There are now wolf packs in nearly all the country's major forests where the wolves exist together with humans."	Where was wolf-hunting banned in 1995?	Onestop	Wed Oct 30 2019 18:47:52 GMT-0400 (EDT)	1572480000000.0	20	reading_comprehension	2
Question 21/36	53407	r1361_1_Middle	18	Middle	0	1|0|2|3	a travel diary|a tour guide|a student's report|a health report	When my wife left this world, I chose to travel in Antigua looking for a peaceful place to rest my old body. Not quite old and weak, I felt I wanted something more than the usual hotel room with 24-hour room service.\nI decided this year to try something completely new and booked myself a private holiday home in Antigua. This was the best decision I had ever made, as there was plenty to do, plenty to see and lots of lovely restaurants to visit. There was a private swimming pool, and a cool, wide yard where I ate my breakfast most mornings.\nAntigua has to be one of the loveliest places on earth to spend a holiday. The bright blue sea and the endless blue around the beach areas proved to be an excellent place for me to spend the long afternoons.\nI had to hurry to do what I wanted to do before the holiday came to an end. I managed to visit the Sugar Mill and Shirley Heights on my last two days and yet found myself wondering whether I could extend for a few more days.\nI rented a boat and came home after a day's sailing, refreshed, looking forward to dinner. Everything is so pleasant on these beautiful islands, swept by the trade winds and warmed by the sun for so many summer months. The food just tasted better to me, perhaps because I was having such a great holiday. There was always someone to have a drink with---- that's what I liked most.	The passage is most likely to be taken from a part of   _  .	RACE	Wed Oct 30 2019 18:47:52 GMT-0400 (EDT)	1572480000000.0	21	reading_comprehension	2
Question 22/36	49966	r10065_2_High	19	High	0	3|2|1|0	The SAT will change the entrance test in 2016.|How to prepare for the new SAT.|Advice for foreign students on passing the SAT.|Tests for entrance to American colleges and universities.	The SAT is one of two major tests for the entrance to American colleges and universities. The other test is called the ACT. More than 2 million students take the SAT yearly, including about 100,000 foreign students. The organization of the SAT will change the entrance test in 2016. The College Board announced that the new SAT will no longer test students on rarely used words. But it will include passages from American historical documents or from writings on freedom and human rights.\nThe College Board says words on the new test will be related to usage. Students will be asked to tell the meaning of words according to the context of the reading passages. Nigerian student Peace Umoru is in her first year at Howard University. She says the rarely used words are the hardest part for international students. The new test will be easier because of the reform.\nEddie West is with the College Board. He says the new test will better predict a student's performance in college. The changes are moving the test in a positive direction. The new SAT pays more attention to skills and abilities that students need to succeed. The addition of material about American historical documents could make the test harder for international students. After all, they live in different countries with different cultures. But it's a good chance for them to understand the Declaration of Independence or Martin Luther King's work, or anything else that might be tested.\nStudents from other countries, particularly those who did not grow up learning English, may feel it is more difficult. For them, the test is in a foreign language. But the College Board says it has formed a free, online educational service. Khan Academy will provide preparation material linked to the newly designed SAT.	What's the main idea of the text?	RACE	Wed Oct 30 2019 18:47:52 GMT-0400 (EDT)	1572480000000.0	22	reading_comprehension	2
Question 23/36	43993	os15_2_2_Adv	20	Adv	0	0|1|2|3	Body motions that show whether someone is guilty|Whether fidgeting causes people to feel guilty|The reliability of the polygraph in determining if someone is guilty|Small changes in breathing rate that show if someone is guilty	"The polygraph is widely used in the US in criminal and other cases and for security clearance for the FBI and CIA but is much less popular in Europe. There has been a lot of skepticism in the scientific and legal communities about its reliability. By contrast, the new method developed by the researchers has performed well in experiments. The basic premise is that liars fidget more and so the use of an all-body motion suit - the kind used in films to create computer-generated characters - will pick this up. One of the research team, Ross Anderson, said: ""Decades of deception research show that the interviewer will tell truth from lies only slightly better than random."" He said the new method, by contrast, achieved a reliability rating of over 70%. In some tests, the team has already achieved more than 80%. Anderson said: ""The takeaway message is that guilty people fidget more and we can measure this robustly."""	What does Anderson say can be measured now?	Onestop	Wed Oct 30 2019 18:47:52 GMT-0400 (EDT)	1572480000000.0	23	reading_comprehension	2
Question 24/36	59166	r6794_3_Middle	21	Middle	0	0|2|1|3	gets over 1,000,000 dollars every year.|is a 10-year-old English newspaper|is made only by kids|always sells 200,000 copies every day	"Choose the best answer.  Choose the best answer(,, A, B, CD):\nCan kids make their own newspapers? They do in Paris. Student editors  at a French newspaper for kids called ""Mon Quotidien"", do every day.\nThe 10-year-old newspaper has its headquarters   in Paris. Sometimes the newspaper sells 200,000 copies every day. It gets more than one million dollars every year! This is much more than other newspapers.\nHow do they decide what to put in the paper? All the adult editors working on the children's daily agree that the paper should be easy and simple to read. Kids should be able to finish it within 10 minutes.\nThe paper covers school life, animals, and science, which are usually kid's favourite subjects. It also talks about big world problem, like the Iraq   war.\nIn order to make the paper more popular with kids, adult editors invite students from age 10 to 15 to take part in their meetings. They have meetings every Wednesday and Sunday. Adult editors, reporters and kids sit together and decide which topics should come out in the paper and on which page.\nWhich topic should come out on the front page, European Union   or bears in the zoo? Often the kid editors and adult writers disagree. Sometimes, the adult editors have to give up because their little editors won't give in.\nUsually the student editors stay in the newspaper office for three hours at each meeting. Any kid in France can call the newspaper if they are interested in being a one-day editor."	Mon Quotidien   _	RACE	Wed Oct 30 2019 18:47:52 GMT-0400 (EDT)	1572480000000.0	24	reading_comprehension	2
Question 25/36	22505	r5318_3_Middle	22	Middle	0	2|1|0|3	In a bookstore.|In a post office.|In a bank.|In a school.	Kate is an American girl. Now she lives in New York with her parents. She lives in a community called Sunny Community. It's on Blue Street. There are five rows  of buildings in the community. Her house is in the first row. She lives on the third floor.\nThere is a post office on Blue Street . Next to it ,there is a bank. Across from the bank ,there is a bookstore. The workers in the bookstore are very friendly to people. Mrs Green works in it. She is Kate's new neighbor. She has a son. His name is Bob. He is in the same class as Kate.\nKate thinks the traffic here is very good, because she never meets any accidents here. She loves her community very much.	Where does Mrs Green work ?	RACE	Wed Oct 30 2019 18:47:52 GMT-0400 (EDT)	1572480000000.0	25	reading_comprehension	2
Question 26/36	13966	os17_1_3_Ele	23	Ele	0	0|3|2|1	Trump International Hotel and Tower|Central Park|Wall Street offices|Cockrell's apartment complex	Clay Cockrell is sitting in his office opposite the Trump International Hotel and Tower. In front of the tower is Central Park, where Cockrell holds his popular walk and talk therapy sessions. Cockrell is a former Wall Street worker who is now a therapist. He spends large parts of his days walking in Central Park or the Battery Park in downtown Manhattan near Wall Street, talking to some of New York's wealthiest people.	What is opposite Cockrell's office?	Onestop	Wed Oct 30 2019 18:47:52 GMT-0400 (EDT)	1572480000000.0	26	reading_comprehension	2
Question 27/36	84734	r3797_3_Middle	24	Middle	0	2|1|3|0	to eat the man|to thank the man|to ask the others|to run away	"Once a tiger was in a cage . Soon a good man went by. As soon as the tiger saw the man, the tiger began to cry. ""Please! Please!"" the tiger called. ""Please, let me out."" ""No,"" said the good man. ""If I do, you will eat me."" ""I will not eat you,"" the tiger said. ""Please let me out.""\nThe good man believed the tiger. He opened the door of the cage. The tiger jumped out. ""How silly you are,"" the tiger laughed. ""Now I am going to eat you."" ""Wait!"" the man cried. ""You ought not to eat me. Let us ask others what they think."" ""You may ask three others. "" the tiger said.\nThe good man asked a tree. The tree said, ""I give shade  . And yet I am cut down. Let the tiger eat you.""\nNext, the good man asked a bird. The bird said, ""I hurt no one. Yet people hunt and kill me. Let the tiger eat you.""\nThe last one that the good man asked was a road. The road said, ""I don't care if the tiger eats you. People could not get along too well without me. Yet all day and all night people step on me without even a 'thank you'.""\nThe tiger was ready to eat the good man. Just then a dog came by. ""What is happening?""\nasked the dog. The man told the dog the whole story.\n""I don't understand,"" said the dog. ""The tiger wants to eat you because you put him in a cage?""\n""No, no,"" said the man. ""Some other men put him in a cage.""\n""Oh,"" the dog said. ""He is going to eat you because you do not have a cage.""\n""Silly dog!"" the tiger cried. ""Don't you understand? I was in the cage. This man let me out.""\n""Oh, I see,"" the dog said. ""When the man was in the cage, you let him out.""\n""I was in the cage!"" the tiger cried. ""In this way!"" with that, he jumped back into the cage.\nAt once, the dog closed the door of the cage. ""Oh,"" the dog laughed. ""At last I understand!""\nThe good man and the dog walked off. The tiger looked sad in the cage. If he waited long enough, perhaps another good man would come by."	After the tiger jumped out of the cage, he wanted   _  .	RACE	Wed Oct 30 2019 18:47:52 GMT-0400 (EDT)	1572480000000.0	27	reading_comprehension	2
Question 28/36	14892	os6_1_3_Ele	25	Ele	0	2|3|0|1	Spain|Scientists have narrowed it to 7,000 plausible locations|Farms in Europe|Africa	Scientists have taken DNA from the tooth of a European hunter-gatherer and have found out what modern humans looked like before they started farming. The Mesolithic man, who lived in Spain about 7,000 years ago, had an unusual mix of blue eyes, black or brown hair and dark skin. He was probably lactose intolerant and could not digest starchy foods easily.	Where did the Mesolithic man live?	Onestop	Wed Oct 30 2019 18:47:52 GMT-0400 (EDT)	1572480000000.0	28	reading_comprehension	2
Question 29/36	30817	os1_1_3_Ele	26	Ele	0	0|2|1|3	It has fewer controls compared to a typical car|It has special foot pedals|It can quickly accelerate to a speed of 25 miles per hour|It has more reliable controls as compared to conventional cars	A car with a maximum speed of 25 miles per hour, two seats and no pedals or steering wheel does not sound very interesting. But Google, in the US, shocked the car and taxi industries when it unveiled the latest version of its driverless car. Google has begun testing the electric car at its headquarters in Mountain View, California. The car does not have all the normal car controls, such as foot pedals. Instead, it has a smartphone app that calls it and tells it the destination, and a STOP button between the two seats in case the passengers need to override the computer.	What is unique about the controls of the car that Google just released?	Onestop	Wed Oct 30 2019 18:47:52 GMT-0400 (EDT)	1572480000000.0	29	reading_comprehension	2
Question 30/36	22931	os3_1_2_Ele	27	Ele	0	0|3|1|2	He was proud of it|He refused to comment in his Skype interview|He was sorry he wasn't able to take more money|He denied that he has ever taken money from banks	"They call him the Robin Hood of the banks. He is a man who took out loans for almost half a million euros and never paid the money back. Enric Duran gave the money to projects that created and supported alternatives to capitalism. Duran has spent 14 months in hiding. He will not say he is sorry, even though he might go to prison for what he has done. ""I'm proud of what I've done,"" he said in an interview by Skype from a secret location."	How did Enric feel about taking money from banks?	Onestop	Wed Oct 30 2019 18:47:52 GMT-0400 (EDT)	1572480000000.0	30	reading_comprehension	2
Question 31/36	110850	r16096_3_High	28	High	0	2|1|0|3	by using a particular short form of English|by sending short emails|by using peculiar English words and expression|in a funny way	"If you have been joining in chat room conversations, or trading email with web pals   , you have become one of the millions who write in a peculiarly short form of English.\nAnd you've got a sense of humor about short forms like SOHF (="" sense"" of humor failure) to describe Internet newcomers who don't understand you.\nAcross the globe, every night teenagers and their elders are ""talking online"", many of them all talking at the same time.\nIt's fast: try talking to six people at once.It's brief: three or four words per exchange.It takes wit, concentration, and quick fingers.\nAnd it requires tremendous linguistic economy  .There's neither time nor space for explanations.Why consume precious key-strokes   telling six friends you have to leave for a moment to take care of your little brother when BRB( ="" be"" right back) will do?\nWant to enter a conversation? Just type PMFJI (="" pardon"" me for jumping in).\nInterested in whom you are talking to? Type A/S/L, the nearly universal request to know your pal's age, sex and location.You may get 15/M/NY as a response from your pal.\nIf something makes you laugh, say you are OTF (="" on"" the floor), or LOL (="" laughing"" out loud), or combing the two into ROTFL ( ="" rolling"" on the floor laughing) .\nAnd when it is time to get back to work or go to bed, you type GTG (="" got"" to go) or TTYL (=""talk"" to you later).\nPeople want to write as fast as possible, and they want to get their ideas across as quickly as they can.Capital letters are left in the dust, except when expressing emotion, as it takes, more time to hold down the ""shift"" key and capitals.Punctuation   is going, too."	Many people talk on the Internet    _   .	RACE	Wed Oct 30 2019 18:47:52 GMT-0400 (EDT)	1572480000000.0	31	reading_comprehension	2
Question 32/36	90423	r23332_1_High	29	High	0	1|0|2|3	An actress.|Jack himself.|Jack's mother.|Park guard.	"On the way home from school, Jack always passes a park. His mother said it was dangerous to pass by the park at night, but it is the fastest way home. Today, after finishing soccer practice, Jack was walking toward the park as usual.\nSuddenly, Jack heard someone calling him, ""Excuse me!"" Jack turned around, and there was an old woman. ""Yes, ma'am."" Jack answered politely. ""Don't pass by the park tonight."" Her voice was weak and dry. ""Okay, ma'am,"" said Jack carelessly. The old woman held Jack's hand strongly, and said, ""I mean it!"" Jack felt the hairs on his neck stand up. As soon as the lady let go of his hand, he started to run. This time, he ran so fast that he didn't have time to think where he was going.\nWhen he stopped, he realized he was in the middle of the park. He remembered what the old woman had said, but it was too late. He thought, ""It would be okay if I run really fast."" Suddenly, he heard someone scream . Jack was too frightened to wonder who it was. He breathed as deep as possible. The screaming continued. He heard some fast footsteps approaching, so he turned around. It was the old lady! She walked toward him, and shouted ""I told you not to come here!""\nFrightened to death, Jack screamed sharply and ran home like an arrow. He thought he heard not only the old lady, but also some other people shouting at him, and it made him more terrified. As soon as Jack saw his mother, Jack said, ""Mom! Do you know what just happened at the park?"" Jack's mother nodded, and said, ""Yes, I know. There is a movie shooting tonight in the park."""	Who might be the person that screamed?	RACE	Wed Oct 30 2019 18:47:52 GMT-0400 (EDT)	1572480000000.0	32	reading_comprehension	2
Question 33/36	30183	os6_3_2_Adv	30	Adv	0	3|2|1|0	Attached to clothing |Hung in the caves|Next to cave carvings|Next to weapons	The Spanish team started their work after a group of cavers stumbled upon two skeletons in a deep and complex cave system high up in the Cantabrian Mountains of northwest Spain in 2006. The human remains, which belonged to two men in their early 30s, had been extremely well preserved by the cool environment of the cave. Carbon dating put the remains at around 7,000 years old, before farming had swept into Europe from the Middle East. The timing fitted with ancient artifacts found at the site, including perforated reindeer teeth that were strung and hung from the people's clothing.	Where were reindeer teeth found?	Onestop	Wed Oct 30 2019 18:47:52 GMT-0400 (EDT)	1572480000000.0	33	reading_comprehension	2
Question 34/36	36795	r774_3_Middle	31	Middle	0	0|1|2|3	Wu Jun|Han Mei|Zhang Hong|Some of the boys	I am a Chinese boy. My name is Li Ming. I'm a student. In my class, some of the boys like playing football very much. Wu Jun and I are on school football team. And some of them like playing basketball. _ Han Mei and Zhang Hong are on school volleyball team. Each of them has a tennis racket. In a word  , everyone in our class likes sports very much.	_   and Li Ming are on school football team.	RACE	Wed Oct 30 2019 18:47:52 GMT-0400 (EDT)	1572480000000.0	34	reading_comprehension	2
Question 35/36	44584	os11_1_1_Adv	32	Adv	0	2|0|1|3	The rise in popularity of online shopping|The increase in in-store shopping|The activity of companies like Marketforce|The success of reality TV shows about mystery shoppers	"There are approximately 50,000 mystery shopping trips carried out every month in the UK, according to the Mystery Shopping Providers Association, and, because more and more spending takes place online, the demand for mystery shoppers is growing. Mystery shoppers pretend to be a customer in a store but they are really collecting information on how good or bad its service is. ""Retailers are becoming increasingly aware that shoppers who are prepared to set foot in a physical store want a service and an experience they can't get online,"" says Simon Boydell, spokesman for Marketforce, which has more than 300,000 mystery shoppers on its books. ""Our clients want to measure how well their stores are delivering on that experience."""	Which factor has been contributing to the increasing demand for mystery shoppers?	Onestop	Wed Oct 30 2019 18:47:52 GMT-0400 (EDT)	1572480000000.0	35	reading_comprehension	2
